Energy per particle (eV)
-0.009181
-0.008273
-0.008691
-0.008779
-0.008119
-0.008284
-0.008076
-0.008734
-0.008198
-0.008139
-0.007937
-0.007883
-0.007942
-0.007598
-0.007726
-0.007604
-0.007677
-0.007762
-0.007481
-0.006924
-0.007134
-0.006836
-0.007630
-0.007174
-0.007114
-0.007668
-0.006947
-0.006954
-0.007075
-0.006905
-0.007254
-0.007232
-0.007995
-0.006992
-0.007285
-0.006401
-0.006838
-0.007459
-0.006971
-0.007168
-0.007442
-0.006935
-0.007379
-0.007714
-0.007989
-0.007647
-0.007948
-0.007867
-0.007209
-0.007013
-0.007617
-0.007696
-0.007391
-0.007416
-0.007736
-0.007559
-0.007824
-0.007962
-0.007748
-0.007710
-0.007773
-0.008137
-0.007399
-0.007345
-0.007100
-0.006970
-0.007281
-0.007121
-0.007118
-0.006424
-0.007491
-0.007475
-0.007269
-0.007797
-0.007450
-0.007806
-0.006903
-0.006516
-0.006994
-0.007007
-0.006587
-0.007345
-0.006781
-0.007458
-0.007598
-0.007893
-0.007822
-0.007400
-0.007502
-0.007461
-0.007761
-0.007892
-0.008242
-0.007775
-0.007871
-0.007636
-0.008415
-0.008460
-0.008893
-0.007649
-0.007496
-0.007977
-0.007102
-0.007291
-0.007519
-0.007658
-0.007401
-0.007667
-0.006911
-0.006631
-0.007478
-0.007349
-0.006954
-0.007088
-0.007410
-0.007618
-0.007653
-0.007490
-0.007340
-0.007434
-0.006985
-0.007256
-0.006898
-0.007391
-0.006910
-0.006944
-0.007037
-0.006718
-0.007173
-0.006553
-0.007149
-0.007540
-0.007322
-0.007288
-0.006429
-0.006870
-0.006748
-0.007113
-0.006980
-0.007463
-0.006669
-0.007022
-0.006465
-0.007035
-0.007174
-0.007370
-0.006939
-0.007326
-0.006986
-0.006935
-0.006649
-0.006766
-0.006832
-0.006847
-0.006971
-0.006866
-0.006490
-0.006595
-0.006928
-0.006682
-0.006313
-0.006656
-0.007088
-0.006810
-0.007291
-0.006569
-0.006673
-0.006172
-0.006557
-0.006731
-0.006447
-0.006098
-0.006694
-0.006483
-0.006289
-0.006535
-0.007053
-0.006699
-0.006931
-0.007101
-0.007342
-0.007163
-0.007108
-0.006514
-0.006997
-0.006633
-0.006332
-0.006387
-0.006368
-0.006842
-0.006967
-0.006973
-0.007515
-0.006927
-0.006380
-0.006727
-0.006870
-0.006626
-0.006905
-0.007569
-0.007717
-0.007197
-0.006515
-0.007239
-0.007429
-0.007542
-0.007439
-0.007180
-0.007829
-0.007530
-0.008242
-0.008175
-0.008041
-0.007393
-0.007887
-0.008177
-0.007407
-0.008162
-0.007542
-0.007049
-0.007571
-0.007641
-0.007330
-0.006967
-0.006458
-0.006707
-0.006747
-0.006660
-0.006458
-0.006327
-0.006372
-0.006316
-0.007193
-0.006812
-0.006744
-0.007111
-0.007522
-0.007561
-0.007858
-0.007556
-0.007233
-0.007298
-0.006498
-0.007371
-0.006734
-0.006548
-0.006723
-0.006659
-0.007438
-0.006948
-0.006794
-0.006840
-0.007011
-0.007308
-0.007178
-0.007257
-0.006753
-0.007351
-0.007193
-0.006970
-0.006808
-0.007342
-0.006973
-0.006832
-0.006638
-0.006485
-0.006601
-0.006989
-0.006933
-0.006949
-0.007575
-0.007606
-0.007386
-0.006582
-0.007059
-0.007288
-0.007264
-0.007147
-0.006776
-0.006961
-0.006571
-0.006621
-0.007036
-0.006857
-0.006551
-0.006672
-0.007007
-0.006537
-0.006776
-0.006773
-0.006796
-0.006817
-0.006556
-0.007358
-0.007305
-0.007041
-0.006840
-0.006997
-0.006999
-0.007070
-0.006648
-0.006456
-0.007018
-0.007107
-0.006489
-0.006515
-0.005936
-0.006018
-0.006500
-0.005896
-0.005952
-0.006631
-0.006536
-0.006226
-0.006604
-0.005969
-0.006386
-0.006826
-0.006928
-0.006999
-0.007010
-0.006765
-0.006764
-0.006570
-0.006153
-0.006579
-0.006822
-0.007012
-0.007594
-0.007080
-0.006895
-0.006888
-0.006896
-0.006885
-0.007019
-0.007154
-0.006773
-0.006874
-0.006770
-0.006483
-0.007048
-0.006837
-0.007124
-0.006219
-0.006726
-0.006819
-0.006687
-0.006934
-0.006472
-0.006914
-0.007216
-0.007261
-0.007881
-0.006686
-0.006734
-0.006584
-0.006795
-0.006744
-0.006131
-0.006637
-0.006172
-0.006462
-0.006768
-0.006658
-0.005903
-0.006124
-0.006329
-0.006203
-0.006315
-0.006424
-0.006196
-0.006316
-0.006277
-0.006654
-0.006103
-0.005254
-0.005777
-0.005808
-0.006067
-0.006028
-0.006311
-0.006601
-0.006620
-0.006208
-0.005919
-0.006015
-0.006349
-0.006399
-0.006791
-0.006386
-0.006405
-0.006484
-0.006235
-0.006337
-0.006280
-0.006630
-0.006239
-0.006182
-0.005804
-0.006530
-0.005877
-0.006044
-0.005768
-0.006048
-0.006001
-0.005787
-0.005891
-0.006419
-0.006278
-0.006181
-0.006326
-0.006456
-0.007124
-0.007041
-0.006705
-0.006877
-0.006463
-0.006678
-0.006599
-0.006612
-0.006423
-0.006069
-0.005728
-0.006254
-0.006390
-0.006219
-0.006105
-0.006128
-0.005899
-0.006421
-0.005989
-0.006355
-0.005828
-0.006254
-0.006212
-0.006616
-0.006397
-0.006445
-0.006894
-0.006651
-0.006482
-0.006443
-0.005976
-0.006257
-0.005977
-0.006276
-0.006404
-0.006790
-0.006245
-0.006406
-0.006304
-0.006157
-0.005985
-0.006171
-0.005716
-0.005574
-0.005558
-0.005809
-0.005778
-0.005804
-0.006316
-0.005624
-0.005165
-0.005341
-0.005289
-0.005270
-0.005254
-0.005150
-0.005373
-0.005612
-0.005274
-0.005833
-0.005382
-0.005246
-0.005641
-0.005500
-0.005788
-0.005418
-0.005558
-0.005503
-0.005634
-0.005886
-0.005808
-0.005600
-0.005719
-0.005781
-0.006359
-0.005975
-0.006347
-0.005764
-0.006253
-0.006108
-0.006186
-0.006226
-0.006473
-0.006573
-0.007120
-0.007078
-0.006335
-0.006574
-0.006886
-0.006548
-0.006209
-0.006011
-0.006566
-0.006207
-0.005793
-0.005960
-0.006238
-0.005955
-0.006032
-0.005955
-0.005522
-0.005361
-0.005504
-0.005871
-0.005408
-0.005632
-0.005751
-0.005542
-0.005648
-0.005927
-0.005879
-0.005998
-0.006118
-0.005680
-0.005720
-0.006180
-0.005992
-0.006190
-0.006360
-0.005816
-0.005754
-0.005908
-0.005743
-0.005941
-0.006485
-0.006771
-0.006341
-0.006647
-0.006665
-0.006840
-0.006141
-0.005512
-0.006337
-0.006288
-0.006218
-0.006505
-0.006737
-0.006421
-0.006629
-0.006806
-0.006640
-0.006589
-0.006462
-0.006777
-0.006578
-0.006579
-0.006400
-0.007082
-0.006058
-0.006461
-0.006550
-0.006424
-0.006093
-0.006817
-0.006484
-0.006218
-0.006461
-0.006257
-0.006412
-0.006087
-0.006427
-0.005641
-0.006241
-0.006223
-0.006264
-0.006733
-0.007254
-0.007609
-0.007452
-0.007311
-0.006978
-0.006952
-0.006456
-0.005943
-0.006695
-0.006053
-0.006487
-0.006591
-0.006914
-0.006342
-0.006440
-0.006199
-0.006635
-0.006761
-0.005854
-0.006469
-0.005682
-0.006327
-0.006890
-0.006871
-0.006782
-0.006178
-0.006685
-0.006927
-0.006416
-0.006854
-0.006567
-0.006076
-0.006468
-0.006350
-0.006637
-0.005832
-0.006292
-0.005883
-0.005747
-0.005949
-0.006311
-0.006272
-0.006075
-0.005979
-0.005798
-0.006066
-0.006232
-0.006664
-0.006569
-0.006627
-0.006051
-0.006155
-0.006795
-0.007489
-0.006780
-0.006995
-0.006750
-0.006066
-0.006011
-0.006282
-0.006115
-0.006127
-0.006367
-0.006441
-0.005855
-0.006154
-0.006234
-0.005932
-0.005529
-0.005375
-0.005757
-0.005963
-0.005745
-0.006197
-0.005734
-0.006622
-0.006620
-0.006125
-0.006145
-0.006271
-0.006508
-0.006043
-0.005601
-0.005706
-0.005238
-0.005800
-0.005686
-0.006132
-0.006115
-0.005453
-0.005937
-0.006649
-0.006239
-0.006172
-0.005778
-0.005829
-0.005943
-0.006426
-0.006173
-0.005758
-0.005912
-0.006028
-0.005163
-0.005538
-0.005300
-0.005795
-0.006142
-0.006072
-0.005510
-0.005790
-0.005596
-0.005988
-0.005924
-0.005874
-0.006375
-0.005739
-0.006209
-0.006011
-0.005917
-0.006037
-0.005958
-0.006176
-0.006582
-0.006163
-0.006448
-0.005942
-0.005853
-0.005397
-0.005764
-0.005208
-0.004921
-0.005141
-0.005038
-0.005710
-0.005790
-0.005252
-0.005651
-0.005584
-0.006273
-0.005591
-0.004567
-0.005262
-0.005060
-0.004838
-0.004915
-0.005921
-0.005981
-0.005623
-0.005757
-0.005857
-0.005817
-0.005889
-0.005518
-0.005799
-0.005348
-0.005126
-0.004907
-0.004999
-0.005234
-0.005454
-0.005574
-0.005936
-0.005803
-0.005356
-0.005708
-0.005584
-0.005754
-0.006195
-0.006037
-0.006150
-0.006118
-0.005837
-0.005911
-0.005506
-0.005813
-0.005478
-0.005676
-0.005382
-0.005565
-0.005157
-0.005177
-0.005195
-0.005253
-0.005348
-0.005126
-0.005455
-0.005700
-0.005650
-0.005729
-0.005195
-0.005174
-0.005604
-0.005556
-0.005535
-0.005459
-0.005958
-0.005802
-0.005371
-0.005687
-0.005077
-0.004843
-0.004488
-0.005375
-0.005430
-0.005641
-0.005203
-0.004952
-0.005385
-0.005767
-0.005589
-0.005130
-0.004967
-0.005378
-0.005545
-0.005689
-0.005306
-0.005324
-0.005258
-0.005911
-0.005244
-0.005528
-0.006099
-0.006267
-0.006032
-0.005592
-0.005685
-0.005357
-0.006318
-0.005299
-0.005319
-0.005639
-0.005574
-0.005343
-0.005550
-0.005727
-0.005568
-0.005563
-0.005586
-0.005926
-0.005772
-0.005485
-0.005149
-0.006026
-0.006225
-0.006400
-0.006315
-0.005400
-0.005231
-0.005183
-0.005876
-0.005991
-0.006086
-0.005803
-0.005517
-0.006213
-0.005806
-0.006099
-0.005912
-0.005457
-0.005492
-0.005275
-0.005609
-0.006170
-0.006153
-0.006438
-0.005966
-0.005723
-0.005342
-0.005173
-0.005061
-0.005289
-0.005747
-0.006032
-0.005660
-0.005610
-0.005557
-0.005862
-0.005572
-0.006022
-0.006061
-0.005560
-0.006023
-0.006187
-0.005503
-0.005969
-0.006205
-0.005879
-0.006738
-0.006192
-0.006066
-0.005968
-0.005834
-0.005876
-0.006508
-0.005858
-0.006129
-0.006435
-0.006667
-0.006109
-0.006445
-0.006422
-0.006335
-0.005844
-0.005708
-0.006528
-0.006415
-0.005960
-0.006529
-0.005917
-0.006054
-0.005994
-0.005925
-0.006001
-0.006330
-0.006203
-0.006156
-0.006949
-0.006354
-0.006729
-0.006358
-0.006745
-0.006032
-0.006523
-0.006004
-0.006144
-0.006229
-0.006436
-0.006554
-0.006595
-0.006327
-0.005813
-0.006437
-0.005835
-0.006030
-0.006305
-0.005752
-0.005925
-0.005885
-0.005234
-0.005632
-0.004866
-0.004699
-0.005657
-0.004977
-0.005730
-0.005950
-0.005603
-0.005857
-0.005826
-0.006115
-0.005803
-0.006315
-0.006415
-0.006039
-0.005932
-0.005597
-0.006076
-0.005906
-0.006145
-0.005816
-0.005932
-0.005700
-0.005892
-0.005772
-0.006707
-0.006436
-0.006434
-0.006254
-0.005887
-0.006183
-0.006338
-0.006191
-0.005654
-0.005808
-0.006134
-0.006094
-0.006283
-0.006172
-0.006180
-0.005788
-0.005709
-0.005518
-0.005768
-0.005133
-0.005383
-0.005628
-0.006017
-0.005611
-0.005436
-0.005245
-0.005677
-0.005483
-0.005865
-0.005632
-0.006024
-0.005725
-0.005723
-0.005469
-0.005207
-0.005043
-0.005443
-0.005449
-0.005319
-0.004920
-0.005687
-0.005347
-0.005246
-0.004999
-0.005280
-0.005173
-0.004991
-0.005516
-0.005263
-0.005598
-0.006291
-0.005484
-0.005878
-0.005678
-0.005246
-0.004575
-0.004943
-0.005037
