Energy per particle (eV)
0.241267
0.013495
-0.014616
-0.018449
-0.017811
-0.016233
-0.016093
-0.014316
-0.013993
-0.014131
-0.014149
-0.013387
-0.013410
-0.012640
-0.012750
-0.011745
-0.011795
-0.011649
-0.010834
-0.011070
-0.011287
-0.010755
-0.010232
-0.011033
-0.010226
-0.010466
-0.009987
-0.010463
-0.010508
-0.009132
-0.010376
-0.008869
-0.009042
-0.009230
-0.009173
-0.008674
-0.008664
-0.008078
-0.008073
-0.007854
-0.007732
-0.007947
-0.008010
-0.007706
-0.007430
-0.007848
-0.007483
-0.007049
-0.006814
-0.006784
-0.007467
-0.006209
-0.006402
-0.007378
-0.006854
-0.006235
-0.006285
-0.005513
-0.006301
-0.005645
-0.006038
-0.005483
-0.005670
-0.005923
-0.006108
-0.005046
-0.005459
-0.006021
-0.005539
-0.006294
-0.005819
-0.005579
-0.005670
-0.005870
-0.005635
-0.005529
-0.006428
-0.005853
-0.005874
-0.005172
-0.004885
-0.004937
-0.004434
-0.004616
-0.004341
-0.004470
-0.004257
-0.004609
-0.004231
-0.004301
-0.004632
-0.004668
-0.004048
-0.004734
-0.004985
-0.004511
-0.004806
-0.004529
-0.004604
-0.004788
-0.005068
-0.004514
-0.004268
-0.003820
-0.004202
-0.004405
-0.004097
-0.004055
-0.004479
-0.003970
-0.003967
-0.004172
-0.004364
-0.003580
-0.003524
-0.004130
-0.004049
-0.003992
-0.003720
-0.004453
-0.004084
-0.004179
-0.004158
-0.004325
-0.004036
-0.004275
-0.004543
-0.004176
-0.003857
-0.003805
-0.004122
-0.003900
-0.004087
-0.004407
-0.003962
-0.003853
-0.004012
-0.004059
-0.003614
-0.003280
-0.003446
-0.004266
-0.003863
-0.003987
-0.004417
-0.004579
-0.003903
-0.004528
-0.003990
-0.003615
-0.004422
-0.004329
-0.003522
-0.004279
-0.004198
-0.003721
-0.003710
-0.003977
-0.003982
-0.004010
-0.004215
-0.004172
-0.003629
-0.003395
-0.003511
-0.003790
-0.003919
-0.003976
-0.003781
-0.004202
-0.003828
-0.003970
-0.004442
-0.003948
-0.004212
-0.003367
-0.003805
-0.004162
-0.003913
-0.003761
-0.004353
-0.004368
-0.004093
-0.003666
-0.003884
-0.003594
-0.004157
-0.003682
-0.003653
-0.003854
-0.004296
-0.005038
-0.004577
-0.004463
-0.004154
-0.004208
-0.004245
-0.004299
-0.003991
-0.004707
-0.003696
-0.004160
-0.004041
-0.003322
-0.004118
-0.004309
-0.004025
-0.003962
-0.003856
-0.004038
-0.003522
-0.003767
-0.003324
-0.003990
-0.003551
-0.003789
-0.003891
-0.003977
-0.003803
-0.003819
-0.003991
-0.003957
-0.003783
-0.004286
-0.002938
-0.003220
-0.003965
-0.002950
-0.003817
-0.003773
-0.003459
-0.003655
-0.003967
-0.003999
-0.003552
-0.003034
-0.003501
-0.003456
-0.003899
-0.003717
-0.003953
-0.003965
-0.003558
-0.003859
-0.003579
-0.003292
-0.003269
-0.003295
-0.003492
-0.003338
-0.003210
-0.003496
-0.003702
-0.003612
-0.003471
-0.003914
-0.004061
-0.004479
-0.003864
-0.003964
-0.003527
-0.003977
-0.003801
-0.004171
-0.003522
-0.003311
-0.003616
-0.003752
-0.003197
-0.003256
-0.004190
-0.003794
-0.003370
-0.003844
-0.003730
-0.004362
-0.004282
-0.004107
-0.003785
-0.004579
-0.004522
-0.003883
-0.004796
-0.004319
-0.004547
-0.004220
-0.004217
-0.004358
-0.004140
-0.004198
-0.003756
-0.003172
-0.003343
-0.004347
-0.003917
-0.003977
-0.004105
-0.003722
-0.004041
-0.003963
-0.003619
-0.003712
-0.003558
-0.004251
-0.003684
-0.004240
-0.003838
-0.003459
-0.003723
-0.003389
-0.003456
-0.004052
-0.003316
-0.003699
-0.003535
-0.003440
-0.003758
-0.003627
-0.003889
-0.003429
-0.003245
-0.003692
-0.003976
-0.003655
-0.003989
-0.003176
-0.003795
-0.003886
-0.004038
-0.003764
-0.004228
-0.003555
-0.003383
-0.003449
-0.003853
-0.004117
-0.003475
-0.003867
-0.004544
-0.003793
-0.003925
-0.003917
-0.003344
-0.003825
-0.003129
-0.004007
-0.003729
-0.003738
-0.003603
-0.003569
-0.003616
-0.003379
-0.003725
-0.003049
-0.003274
-0.003053
-0.003068
-0.003729
-0.003657
-0.003842
-0.003859
-0.004294
-0.004280
-0.003960
-0.004002
-0.003948
-0.003723
-0.004051
-0.004133
-0.003645
-0.003614
-0.004046
-0.003962
-0.004199
-0.003715
-0.004307
-0.003671
-0.003613
-0.003461
-0.003738
-0.003858
-0.004629
-0.004110
-0.004472
-0.005033
-0.003816
-0.003974
-0.003683
-0.004235
-0.004198
-0.004028
-0.004170
-0.003847
-0.003055
-0.003896
-0.003528
-0.004150
-0.003872
-0.003914
-0.004480
-0.004532
-0.003902
-0.004197
-0.004668
-0.003695
-0.003684
-0.003608
-0.004228
-0.003753
-0.004277
-0.003509
-0.003907
-0.003641
-0.003870
-0.003807
-0.004567
-0.003935
-0.003866
-0.003953
-0.004046
-0.003501
-0.003652
-0.003732
-0.003844
-0.004338
-0.003824
-0.003777
-0.003780
-0.003768
-0.003657
-0.003608
-0.003832
-0.004221
-0.003903
-0.004141
-0.004460
-0.003960
-0.004033
-0.003834
-0.004382
-0.004107
-0.003776
-0.003418
-0.003810
-0.003981
-0.003871
-0.003844
-0.003986
-0.003665
-0.003685
-0.003951
-0.003423
-0.004169
-0.004258
-0.003517
-0.004162
-0.004101
-0.004473
-0.003466
-0.003754
-0.003945
-0.003881
-0.003711
-0.003745
-0.003431
-0.003669
-0.003683
-0.003262
-0.004391
-0.003695
-0.003897
-0.004044
-0.004126
-0.004272
-0.003965
-0.003892
-0.004287
-0.004059
-0.004317
-0.003830
-0.004199
-0.003965
-0.003619
-0.003697
-0.004153
-0.003697
-0.003925
-0.004492
-0.003902
-0.003624
-0.004581
-0.003629
-0.003725
-0.004078
-0.003759
-0.003443
-0.003636
-0.003899
-0.004122
-0.003583
-0.003974
-0.003908
-0.004210
-0.003729
-0.003290
-0.003687
-0.004244
-0.004085
-0.004249
-0.003939
-0.004276
-0.003485
-0.003423
-0.004027
-0.003758
-0.003849
-0.003548
-0.004089
-0.003326
-0.003573
-0.003385
-0.004217
-0.003711
-0.003107
-0.003574
-0.003429
-0.004085
-0.003806
-0.003809
-0.003308
-0.003715
-0.003799
-0.003634
-0.003394
-0.004099
-0.003842
-0.004077
-0.004384
-0.003976
-0.003740
-0.003876
-0.004049
-0.004428
-0.004330
-0.004374
-0.003634
-0.003783
-0.004274
-0.004477
-0.004396
-0.004719
-0.004272
-0.004125
-0.004258
-0.004304
-0.004205
-0.004391
-0.004593
-0.004533
-0.004155
-0.004418
-0.003448
-0.004163
-0.003418
-0.003846
-0.003484
-0.003879
-0.003484
-0.004083
-0.003894
-0.003736
-0.003879
-0.004010
-0.003992
-0.004011
-0.003699
-0.003695
-0.003574
-0.003502
-0.003660
-0.004430
-0.003885
-0.004102
-0.003777
-0.003782
-0.003467
-0.003739
-0.003135
-0.003386
-0.004012
-0.003644
-0.003901
-0.004817
-0.004848
-0.004882
-0.004326
-0.003572
-0.003909
-0.003608
-0.003558
-0.004684
-0.003903
-0.004000
-0.003381
-0.004208
-0.004200
-0.003812
-0.003168
-0.003356
-0.003855
-0.003766
-0.004549
-0.003379
-0.003744
-0.003557
-0.003806
-0.004105
-0.003934
-0.004252
-0.003898
-0.004026
-0.004096
-0.003969
-0.003563
-0.003837
-0.003919
-0.003720
-0.004521
-0.004011
-0.003777
-0.003437
-0.003625
-0.004102
-0.003609
-0.003284
-0.003826
-0.003425
-0.002655
-0.003795
-0.003309
-0.003352
-0.003891
-0.003711
-0.004298
-0.003992
-0.003791
-0.003327
-0.003469
-0.004051
-0.003349
-0.003093
-0.003871
-0.003775
-0.004563
-0.004102
-0.003800
-0.003657
-0.003842
-0.003604
-0.004131
-0.004114
-0.003338
-0.003027
-0.003724
-0.003671
-0.003691
-0.003889
-0.004107
-0.003669
-0.003724
-0.003839
-0.003466
-0.003452
-0.003595
-0.003645
-0.004026
-0.003569
-0.003356
-0.003695
-0.003849
-0.004004
-0.003639
-0.003627
-0.003821
-0.003447
-0.003968
-0.003822
-0.003961
-0.003635
-0.003230
-0.003352
-0.003679
-0.003799
-0.003623
-0.003558
-0.003753
-0.003648
-0.003853
-0.003546
-0.004459
-0.003104
-0.003091
-0.003909
-0.004585
-0.003710
-0.004194
-0.003486
-0.004316
-0.004478
-0.003962
-0.003968
-0.003610
-0.004239
-0.003942
-0.003754
-0.004613
-0.004117
-0.003963
-0.003694
-0.003495
-0.003441
-0.004295
-0.004120
-0.004274
-0.004616
-0.004698
-0.004102
-0.004251
-0.004261
-0.004320
-0.004039
-0.003975
-0.003692
-0.003931
-0.004005
-0.004353
-0.004431
-0.004432
-0.003471
-0.003940
-0.003412
-0.004026
-0.004089
-0.004048
-0.003846
-0.004048
-0.003340
-0.003793
-0.003367
-0.003279
-0.003786
-0.003788
-0.003831
-0.003650
-0.003965
-0.003050
-0.003940
-0.002959
-0.003594
-0.004277
-0.004277
-0.003578
-0.003770
-0.004086
-0.003908
-0.003866
-0.003474
-0.003667
-0.003944
-0.004125
-0.003907
-0.004145
-0.004246
-0.004526
-0.003616
-0.004020
-0.004040
-0.003409
-0.004401
-0.003538
-0.003905
-0.004065
-0.004189
-0.003991
-0.003875
-0.003649
-0.003502
-0.003334
-0.004084
-0.004023
-0.003973
-0.004189
-0.003863
-0.003884
-0.004110
-0.003858
-0.004235
-0.004223
-0.004179
-0.003987
-0.004400
-0.003682
-0.004139
-0.003901
-0.004243
-0.003772
-0.003917
-0.004011
-0.003924
-0.004923
-0.004199
-0.003826
-0.003572
-0.004071
-0.003960
-0.003408
-0.004237
-0.003911
-0.003674
-0.003392
-0.003465
-0.003711
-0.003524
-0.003810
-0.003667
-0.003357
-0.003618
-0.003888
-0.004113
-0.003412
-0.003911
-0.004013
-0.004060
-0.003881
-0.004680
-0.004538
-0.004609
-0.004036
-0.003666
-0.004272
-0.004230
-0.003672
-0.003381
-0.003714
-0.003794
-0.004074
-0.003684
-0.003875
-0.004157
-0.004009
-0.004040
-0.003710
-0.004058
-0.003552
-0.003416
-0.003335
-0.003893
-0.003766
-0.003644
-0.003166
-0.004175
-0.004601
-0.003732
-0.003813
-0.003475
-0.004132
-0.004184
-0.004011
-0.004334
-0.003974
-0.004333
-0.004205
-0.004039
-0.004115
-0.004197
-0.004338
-0.003949
-0.004384
-0.005062
-0.004326
-0.004297
-0.004340
-0.004734
-0.004167
-0.003861
-0.004406
-0.004192
-0.004344
-0.004615
-0.003578
-0.003694
-0.004060
-0.003916
-0.003993
-0.004138
-0.004252
-0.004193
-0.003543
-0.003880
-0.004162
-0.004183
-0.004309
-0.004229
-0.003786
-0.003880
-0.004289
-0.004072
-0.004476
-0.003999
-0.003756
-0.003830
-0.003811
-0.004049
-0.003928
-0.003954
-0.003843
-0.003484
-0.003669
-0.002958
-0.003823
-0.003658
-0.003555
-0.003513
-0.003607
-0.004135
-0.004107
-0.004137
-0.003876
-0.004074
-0.004250
-0.004380
-0.003894
-0.003438
-0.004131
-0.003911
-0.003469
-0.003949
-0.003992
-0.003080
-0.003328
-0.003779
-0.003227
-0.003474
-0.003563
-0.003439
-0.003656
-0.003424
-0.003559
-0.003731
-0.003649
-0.003511
-0.003768
-0.003810
-0.003619
-0.003601
-0.003937
-0.004026
-0.004230
-0.003900
-0.003584
-0.003088
-0.003639
-0.003439
-0.003389
-0.003243
-0.003629
-0.003736
-0.003645
-0.003255
-0.003319
-0.003830
-0.003612
-0.003796
-0.003898
-0.003691
-0.003272
-0.003648
-0.003508
-0.004012
-0.004248
-0.003930
-0.004323
-0.003461
-0.003809
-0.003170
-0.004403
-0.003917
-0.003791
-0.004082
-0.003658
-0.004270
-0.004400
-0.003954
-0.003858
-0.004183
-0.004714
-0.004315
-0.004179
-0.004223
-0.003994
